File: Data/PolymerBlends/Film15_0004_afmspectrum0002.txt
Wavenumber (cm^-1)	Intensity (V)
760	1.77053e-07
761.998	3.87474e-06
763.996	7.00041e-06
765.995	4.79405e-06
767.993	5.1754e-06
769.991	1.38714e-05
771.989	1.06981e-05
773.987	7.06169e-06
775.986	1.06981e-05
777.984	7.81758e-06
779.982	2.24721e-06
781.98	3.83388e-06
783.978	2.41065e-06
785.977	7.07531e-06
787.975	3.9156e-06
789.973	1.58667e-06
791.971	1.3279e-06
793.97	4.24246e-06
795.968	5.27073e-06
797.966	4.474e-06
799.964	3.88155e-06
801.962	5.89723e-06
803.961	6.23772e-06
805.959	8.35554e-06
807.957	1.04121e-05
809.955	1.3456e-05
811.953	8.32831e-06
813.952	5.5976e-06
815.95	4.91663e-06
817.948	5.18221e-06
819.946	8.6756e-06
821.944	4.65786e-06
823.943	2.71708e-06
825.941	4.5489e-06
827.939	3.02352e-06
829.937	2.18592e-06
831.935	6.299e-06
833.934	7.83119e-06
835.932	1.02487e-05
837.93	4.35823e-06
839.928	1.6071e-06
841.927	3.13248e-06
843.925	4.03817e-06
845.923	5.12092e-06
847.921	2.19273e-06
849.919	4.26289e-06
851.918	5.37288e-06
853.916	4.60338e-06
855.914	3.73854e-06
857.912	5.58398e-06
859.91	7.1366e-06
861.909	2.71027e-06
863.907	4.27651e-06
865.905	7.4158e-06
867.903	1.00648e-05
869.901	1.53832e-05
871.9	8.75051e-06
873.898	1.58667e-06
875.896	3.35039e-06
877.894	2.62175e-06
879.892	2.08378e-06
881.891	2.47193e-06
883.889	5.96533e-06
885.887	8.51898e-06
887.885	4.18799e-06
889.884	4.16756e-06
891.882	9.0229e-06
893.88	9.43148e-06
895.878	6.05385e-06
897.876	9.31572e-06
899.875	4.617e-06
901.873	3.96327e-06
903.871	2.52641e-06
905.869	7.47028e-06
907.867	8.79137e-06
909.866	4.20161e-06
911.864	5.26392e-06
913.862	2.49236e-06
915.86	1.21894e-06
917.858	2.18592e-06
919.857	2.51279e-06
921.855	3.90879e-06
923.853	1.30066e-06
925.851	8.43726e-06
927.849	4.31056e-06
929.848	3.67045e-06
931.846	3.80664e-06
933.844	3.77259e-06
935.842	4.23565e-06
937.841	8.85946e-06
939.839	7.49752e-06
941.837	4.35142e-06
943.835	4.66467e-06
945.833	7.53838e-06
947.832	6.86421e-06
949.83	6.76888e-06
951.828	5.72018e-06
953.826	2.47874e-06
955.824	2.90095e-06
957.823	6.00619e-06
959.821	8.3964e-06
961.819	7.44985e-06
963.817	3.33677e-06
965.815	5.40012e-06
967.814	7.64733e-06
969.812	5.39331e-06
971.81	3.21419e-06
973.808	2.56046e-06
975.806	9.94221e-07
977.805	4.44676e-06
979.803	4.36504e-06
981.801	1.04189e-06
983.799	1.90673e-06
985.797	3.10524e-06
987.796	3.99731e-06
989.794	7.2728e-06
991.792	5.84275e-06
993.79	9.7243e-06
995.789	7.47028e-06
997.787	2.28126e-06
999.785	4.63743e-06
1001.78	4.13351e-06
1003.78	5.1754e-06
1005.78	8.78456e-06
1007.78	6.89826e-06
1009.78	7.79034e-06
1011.77	6.78931e-06
1013.77	8.70284e-06
1015.77	5.49546e-06
1017.77	7.838e-06
1019.77	5.52269e-06
1021.77	3.49339e-06
1023.76	4.37866e-06
1025.76	4.42633e-06
1027.76	1.35514e-06
1029.76	2.42427e-06
1031.76	5.59079e-06
1033.75	4.24246e-06
1035.75	3.84069e-06
1037.75	3.52063e-06
1039.75	2.77156e-06
1041.75	7.4158e-06
1043.75	4.88258e-06
1045.74	5.43417e-06
1047.74	3.71811e-06
1049.74	1.4709e-06
1051.74	2.01568e-06
1053.74	2.00206e-06
1055.73	5.9449e-06
1057.73	9.1659e-06
1059.73	6.65992e-06
1061.73	6.73483e-06
1063.73	6.31943e-06
1065.73	5.43417e-06
1067.72	4.73277e-06
1069.72	4.1948e-06
1071.72	3.97008e-06
1073.72	1.8863e-06
1075.72	4.04498e-06
1077.72	3.24824e-06
1079.71	1.36876e-06
1081.71	1.86587e-06
1083.71	2.81923e-06
1085.71	4.80086e-06
1087.71	1.8863e-06
1089.7	8.2534e-06
1091.7	7.95377e-06
1093.7	7.66776e-06
1095.7	8.38278e-06
1097.7	1.41234e-05
1099.7	1.39395e-05
1101.69	1.22916e-05
1103.69	1.24414e-05
1105.69	1.08411e-05
1107.69	5.52269e-06
1109.69	6.41477e-06
1111.68	7.1366e-06
1113.68	1.76372e-06
1115.68	6.48287e-06
1117.68	8.06273e-06
1119.68	8.19211e-06
1121.68	4.24927e-06
1123.67	1.81139e-06
1125.67	5.36607e-06
1127.67	4.24927e-06
1129.67	2.07016e-06
1131.67	1.02827e-06
1133.66	8.78456e-06
1135.66	8.73689e-06
1137.66	4.97792e-06
1139.66	7.42942e-06
1141.66	6.5033e-06
1143.66	2.47874e-06
1145.65	7.40899e-06
1147.65	7.42261e-06
1149.65	1.73648e-06
1151.65	6.51692e-06
1153.65	5.75423e-06
1155.65	6.01981e-06
1157.64	4.00412e-06
1159.64	5.08687e-06
1161.64	5.99938e-06
1163.64	3.95646e-06
1165.64	3.20738e-06
1167.63	2.39022e-06
1169.63	3.60916e-06
1171.63	5.96533e-06
1173.63	1.20328e-05
1175.63	5.53631e-06
1177.63	9.92859e-06
1179.62	6.65311e-06
1181.62	1.36876e-06
1183.62	6.21048e-06
1185.62	4.82129e-06
1187.62	6.29219e-06
1189.61	7.62009e-06
1191.61	6.68716e-06
1193.61	3.85431e-06
1195.61	1.40962e-06
1197.61	3.22781e-06
1199.61	3.49339e-06
1201.6	2.3766e-06
1203.6	1.26661e-06
1205.6	2.48555e-06
1207.6	2.68985e-06
1209.6	2.76475e-06
1211.59	5.89042e-06
1213.59	6.12876e-06
1215.59	5.51588e-06
1217.59	1.07594e-06
1219.59	2.77156e-06
1221.59	2.92138e-06
1223.58	6.10833e-06
1225.58	2.57408e-06
1227.58	3.5002e-06
1229.58	5.5976e-06
1231.58	4.09265e-06
1233.58	5.12773e-06
1235.57	7.0685e-06
1237.57	6.36029e-06
1239.57	6.46925e-07
1241.57	2.76475e-06
1243.57	7.695e-06
1245.56	1.09432e-05
1247.56	8.1853e-06
1249.56	2.52641e-06
1251.56	1.89311e-06
1253.56	1.02146e-06
1255.56	2.19954e-06
1257.55	5.86999e-06
1259.55	3.71811e-06
1261.55	3.82707e-06
1263.55	3.7794e-06
1265.55	7.68138e-06
1267.54	5.12092e-06
1269.54	5.01196e-06
1271.54	5.40693e-06
1273.54	2.48555e-06
1275.54	3.92922e-06
1277.54	7.59966e-06
1279.53	4.82129e-06
1281.53	8.03549e-07
1283.53	6.7144e-06
1285.53	5.80189e-06
1287.53	6.96636e-06
1289.53	3.07119e-06
1291.52	3.6364e-06
1293.52	1.59348e-06
1295.52	8.51217e-07
1297.52	1.43004e-07
1299.52	2.11783e-06
1301.51	5.18221e-06
1303.51	5.01877e-06
1305.51	4.22885e-06
1307.51	2.17912e-06
1309.51	9.45872e-06
1311.51	7.9061e-06
1313.5	5.76785e-06
1315.5	4.4059e-06
1317.5	5.99257e-06
1319.5	2.0293e-06
1321.5	3.71131e-06
1323.49	1.62072e-06
1325.49	6.07428e-06
1327.49	4.03136e-06
1329.49	3.30272e-06
1331.49	6.65992e-06
1333.49	4.72596e-06
1335.48	5.32521e-06
1337.48	6.33305e-06
1339.48	4.6851e-06
1341.48	7.52476e-06
1343.48	5.78146e-06
1345.47	4.29694e-06
1347.47	4.04498e-06
1349.47	2.95542e-06
1351.47	2.15188e-06
1353.47	7.35451e-06
1355.47	7.49752e-06
1357.46	3.78621e-06
1359.46	4.59657e-06
1361.46	7.2728e-06
1363.46	6.79611e-06
1365.46	7.67457e-06
1367.46	8.96842e-06
1369.45	5.84275e-06
1371.45	1.10999e-06
1373.45	4.72596e-06
1375.45	3.8475e-06
1377.45	2.94862e-06
1379.44	7.26599e-06
1381.44	9.02971e-06
1383.44	8.66879e-06
1385.44	6.20367e-06
1387.44	2.31531e-06
1389.44	2.13145e-06
1391.43	3.02352e-06
1393.43	6.74164e-06
1395.43	7.86524e-06
1397.43	9.06376e-06
1399.43	1.0521e-05
1401.42	5.4546e-06
1403.42	5.71337e-06
1405.42	4.46038e-06
1407.42	4.46038e-06
1409.42	7.67457e-06
1411.42	7.12979e-06
1413.41	4.94387e-06
1415.41	8.36235e-06
1417.41	5.95852e-06
1419.41	1.35514e-06
1421.41	4.56933e-06
1423.41	5.5976e-06
1425.4	1.27683e-05
1427.4	1.05823e-05
1429.4	1.09841e-05
1431.4	7.36132e-06
1433.4	6.65311e-06
1435.39	3.54787e-06
1437.39	9.34977e-06
1439.39	9.78559e-06
1441.39	6.74164e-06
1443.39	2.14507e-06
1445.39	8.02868e-06
1447.38	1.79505e-05
1449.38	1.3708e-05
1451.38	7.19108e-06
1453.38	1.59007e-05
1455.38	2.91525e-05
1457.37	3.3858e-05
1459.37	2.26968e-05
1461.37	2.18524e-05
1463.37	1.98844e-05
1465.37	1.94418e-05
1467.37	1.89719e-05
1469.36	1.793e-05
1471.36	1.49269e-05
1473.36	1.08411e-05
1475.36	1.28568e-05
1477.36	9.75154e-06
1479.35	4.55571e-06
1481.35	7.14341e-06
1483.35	3.92241e-06
1485.35	7.85162e-06
1487.35	7.82438e-06
1489.35	1.21826e-05
1491.34	1.12429e-05
1493.34	1.14131e-05
1495.34	1.78483e-05
1497.34	2.24108e-05
1499.34	1.43277e-05
1501.34	8.64836e-06
1503.33	1.04734e-05
1505.33	1.05278e-05
1507.33	9.78559e-06
1509.33	1.18557e-05
1511.33	1.18762e-05
1513.32	1.09841e-05
1515.32	1.27819e-05
1517.32	1.24754e-05
1519.32	7.09574e-06
1521.32	1.15016e-05
1523.32	1.02963e-05
1525.31	8.36235e-06
1527.31	1.03167e-05
1529.31	7.81758e-06
1531.31	1.1059e-05
1533.31	1.17127e-05
1535.3	9.07738e-06
1537.3	6.18324e-06
1539.3	9.22038e-06
1541.3	6.29219e-06
1543.3	3.78621e-06
1545.3	3.5002e-06
1547.29	3.52063e-06
1549.29	6.67354e-07
1551.29	5.8087e-06
1553.29	3.60235e-06
1555.29	4.43314e-06
1557.28	1.77734e-06
1559.28	4.60338e-06
1561.28	2.15188e-06
1563.28	5.48184e-06
1565.28	4.55571e-06
1567.28	5.04601e-06
1569.27	7.00041e-06
1571.27	1.20737e-05
1573.27	1.29521e-05
1575.27	1.02078e-05
1577.27	2.56727e-06
1579.27	6.51011e-06
1581.26	8.49174e-06
1583.26	7.38856e-06
1585.26	4.95068e-06
1587.26	2.83285e-06
1589.26	7.96739e-06
1591.25	5.50908e-06
1593.25	7.16384e-06
1595.25	1.02895e-05
1597.25	1.04529e-05
1599.25	6.8574e-06
1601.25	6.75526e-06
1603.24	7.08212e-06
1605.24	6.91188e-06
1607.24	3.56149e-06
1609.24	1.396e-06
1611.24	3.04395e-06
1613.23	5.10049e-06
1615.23	9.38381e-06
1617.23	7.40899e-06
1619.23	4.85534e-06
1621.23	1.70243e-07
1623.23	3.03714e-06
1625.22	4.0586e-06
1627.22	2.66261e-06
1629.22	3.62959e-06
1631.22	6.94593e-07
1633.22	7.85843e-06
1635.22	1.5138e-05
1637.21	1.4103e-05
1639.21	1.04121e-05
1641.21	7.72905e-06
1643.21	1.78415e-06
1645.21	2.57408e-06
1647.2	4.474e-06
1649.2	8.38278e-06
1651.2	8.80499e-06
1653.2	5.09368e-06
1655.2	5.26392e-06
1657.2	1.14404e-06
1659.19	3.90198e-06
1661.19	4.26289e-06
1663.19	2.31531e-06
1665.19	3.82026e-06
1667.19	3.47977e-06
1669.18	2.19273e-06
1671.18	3.60235e-06
1673.18	4.54209e-06
1675.18	7.70181e-06
1677.18	2.90095e-06
1679.18	4.76681e-06
1681.17	5.84275e-06
1683.17	4.70553e-06
1685.17	6.65992e-06
1687.17	2.4515e-06
1689.17	3.43211e-06
1691.16	5.35926e-06
1693.16	7.68138e-06
1695.16	3.49339e-06
1697.16	2.77156e-06
1699.16	3.75216e-06
1701.16	5.50227e-06
1703.15	1.2598e-06
1705.15	3.18696e-06
1707.15	7.94696e-06
1709.15	8.8118e-06
1711.15	2.97585e-06
1713.15	4.52847e-06
1715.14	6.32624e-06
1717.14	2.87371e-06
1719.14	2.73751e-06
1721.14	5.89042e-06
1723.14	2.88733e-06
1725.13	1.19851e-06
1727.13	2.52641e-06
1729.13	6.53054e-06
1731.13	4.90982e-06
1733.13	7.36813e-06
1735.13	8.43045e-06
1737.12	2.88052e-06
1739.12	2.57408e-06
1741.12	2.22678e-06
1743.12	2.53322e-06
1745.12	2.32212e-06
1747.11	2.6558e-06
1749.11	4.14032e-06
1751.11	4.58976e-06
1753.11	2.7307e-06
1755.11	1.93396e-06
1757.11	2.94181e-06
1759.1	3.67726e-06
1761.1	4.474e-06
1763.1	6.40796e-06
1765.1	4.74638e-06
1767.1	4.43995e-06
1769.09	4.9643e-06
1771.09	2.35617e-06
1773.09	4.61019e-06
1775.09	3.01671e-06
1777.09	9.26124e-07
1779.09	3.75216e-06
1781.08	9.64939e-06
1783.08	6.88464e-06
1785.08	2.23359e-06
1787.08	3.19377e-06
1789.08	5.47503e-06
1791.08	7.04808e-06
1793.07	4.42633e-06
1795.07	3.28229e-06
1797.07	2.41746e-06
1799.07	3.99731e-06
1801.07	4.22885e-06
1803.06	7.98101e-06
1805.06	4.59657e-06
1807.06	1.77053e-06
1809.06	2.83966e-06
1811.06	3.05076e-06
1813.06	8.79137e-06
1815.05	8.55984e-06
1817.05	5.00515e-06
1819.05	2.6558e-06
1821.05	4.64424e-06
1823.05	4.24927e-06
1825.04	5.98576e-06
1827.04	4.18118e-06
1829.04	4.76681e-06
1831.04	8.36916e-06
1833.04	6.10833e-06
1835.04	7.96058e-06
1837.03	7.12979e-06
1839.03	8.59388e-06
1841.03	1.15697e-05
1843.03	7.23194e-06
1845.03	5.89723e-06
1847.03	8.36916e-06
1849.02	8.90032e-06
1851.02	2.32212e-06
1853.02	4.77362e-06
1855.02	3.34358e-06
1857.02	7.01403e-06
1859.01	6.21048e-06
1861.01	1.7501e-06
1863.01	4.80086e-06
1865.01	4.1267e-06
1867.01	2.2404e-06
1869.01	2.87371e-06
1871	4.22885e-06
1873	1.94758e-06
1875	7.86524e-06