File: Data/PolymerBlends/Film15_0004_afmspectrum0001.txt
Wavenumber (cm^-1)	Intensity (V)
760	1.17332e-05
761.998	1.30679e-05
763.996	1.17877e-05
765.995	7.02765e-06
767.993	7.73586e-06
769.991	7.4158e-06
771.989	8.69603e-06
773.987	9.60173e-06
775.986	1.21962e-05
777.984	8.65517e-06
779.982	7.4839e-06
781.98	1.42323e-06
783.978	6.87102e-06
785.977	5.01877e-06
787.975	4.6851e-06
789.973	5.96533e-06
791.971	2.94862e-06
793.97	3.46615e-06
795.968	3.98369e-06
797.966	1.49133e-06
799.964	3.71131e-06
801.962	7.71543e-06
803.961	1.33811e-05
805.959	1.42528e-05
807.957	9.56768e-06
809.955	2.04292e-06
811.953	6.96636e-06
813.952	1.01737e-05
815.95	8.70965e-06
817.948	1.26661e-05
819.946	1.15834e-05
821.944	8.87308e-06
823.943	1.02214e-05
825.941	3.0099e-06
827.939	4.17437e-06
829.937	8.79137e-06
831.935	6.93231e-06
833.934	9.56087e-06
835.932	3.60235e-06
837.93	1.30747e-06
839.928	4.42633e-06
841.927	4.46719e-06
843.925	2.3085e-06
845.923	6.45563e-06
847.921	5.88361e-06
849.919	3.96327e-06
851.918	2.73751e-06
853.916	6.7144e-06
855.914	8.71646e-06
857.912	6.57139e-06
859.91	3.55468e-06
861.909	7.62009e-06
863.907	8.13763e-06
865.905	6.67354e-06
867.903	5.27073e-06
869.901	6.25815e-06
871.9	3.74535e-07
873.898	4.4059e-06
875.896	2.33574e-06
877.894	1.35514e-06
879.892	4.38547e-06
881.891	1.70243e-06
883.889	2.00887e-06
885.887	3.86793e-06
887.885	5.3184e-06
889.884	2.09059e-06
891.882	6.42158e-06
893.88	4.09946e-06
895.878	2.10421e-06
897.876	5.54312e-06
899.875	9.13866e-06
901.873	7.2047e-06
903.871	4.30375e-06
905.869	2.80561e-06
907.867	4.67148e-06
909.866	1.51176e-06
911.864	7.25918e-06
913.862	7.74267e-06
915.86	1.32109e-06
917.858	2.00887e-06
919.857	1.17127e-06
921.855	1.89992e-06
923.853	9.13185e-06
925.851	5.86999e-06
927.849	4.76e-06
929.848	3.5683e-06
931.846	1.07594e-05
933.844	8.03549e-06
935.842	3.40487e-06
937.841	1.92035e-06
939.839	4.24246e-06
941.837	6.013e-06
943.835	8.54622e-06
945.833	6.80973e-06
947.832	2.08378e-06
949.83	5.1754e-07
951.828	2.13145e-06
953.826	1.75691e-06
955.824	1.23937e-06
957.823	7.49752e-06
959.821	2.66942e-06
961.819	5.02558e-06
963.817	7.06169e-06
965.815	7.85162e-06
967.814	6.31943e-06
969.812	4.58976e-06
971.81	2.50598e-06
973.808	6.04023e-06
975.806	3.7794e-06
977.805	2.19273e-06
979.803	2.26764e-06
981.801	5.21626e-06
983.799	6.32624e-06
985.797	4.88258e-06
987.796	1.34833e-06
989.794	9.94221e-06
991.792	1.00171e-05
993.79	9.0229e-06
995.789	1.02827e-05
997.787	5.96533e-06
999.785	3.03033e-06
1001.78	1.09637e-06
1003.78	3.76578e-06
1005.78	2.7988e-06
1007.78	2.74432e-06
1009.78	5.50908e-06
1011.77	2.59451e-06
1013.77	3.62959e-06
1015.77	6.38072e-06
1017.77	8.2534e-06
1019.77	7.75629e-06
1021.77	5.89042e-06
1023.76	3.34358e-06
1025.76	4.0586e-06
1027.76	5.28435e-06
1029.76	7.39537e-06
1031.76	4.11989e-06
1033.75	1.18626e-05
1035.75	6.10152e-06
1037.75	1.15085e-06
1039.75	3.58192e-06
1041.75	2.62175e-06
1043.75	3.68407e-06
1045.74	1.47771e-06
1047.74	2.79199e-07
1049.74	2.19273e-06
1051.74	6.48287e-06
1053.74	6.10152e-06
1055.73	4.57614e-06
1057.73	2.74432e-06
1059.73	3.09843e-06
1061.73	3.24824e-06
1063.73	2.56046e-06
1065.73	3.88836e-06
1067.72	5.22307e-06
1069.72	4.43314e-06
1071.72	3.05757e-06
1073.72	2.54684e-06
1075.72	6.82335e-06
1077.72	6.78931e-06
1079.71	2.88733e-06
1081.71	3.12567e-06
1083.71	2.81242e-06
1085.71	2.94181e-06
1087.71	1.77734e-06
1089.7	9.66982e-07
1091.7	3.35039e-06
1093.7	3.15972e-06
1095.7	7.1366e-06
1097.7	7.79034e-06
1099.7	1.49814e-06
1101.69	3.58873e-06
1103.69	2.46512e-06
1105.69	8.00825e-06
1107.69	1.22848e-05
1109.69	1.24822e-05
1111.68	8.28745e-06
1113.68	2.96223e-06
1115.68	8.6075e-06
1117.68	6.76207e-06
1119.68	5.57717e-06
1121.68	3.11886e-06
1123.67	5.74061e-06
1125.67	6.36029e-06
1127.67	2.95542e-06
1129.67	5.85637e-06
1131.67	4.69872e-06
1133.66	7.14341e-06
1135.66	5.69294e-06
1137.66	3.21419e-06
1139.66	5.20264e-06
1141.66	7.10936e-06
1143.66	6.32624e-06
1145.65	8.6075e-06
1147.65	6.59863e-06
1149.65	6.30581e-06
1151.65	4.63062e-06
1153.65	5.75423e-06
1155.65	6.40796e-06
1157.64	6.85059e-06
1159.64	2.26083e-06
1161.64	1.38238e-06
1163.64	4.71234e-06
1165.64	7.61328e-06
1167.63	2.59451e-06
1169.63	6.44201e-06
1171.63	3.078e-06
1173.63	6.87783e-06
1175.63	8.02187e-06
1177.63	5.12773e-06
1179.62	3.8475e-06
1181.62	4.28332e-06
1183.62	9.70387e-06
1185.62	1.0773e-05
1187.62	4.11308e-06
1189.61	3.3572e-06
1191.61	3.4253e-06
1193.61	3.078e-06
1195.61	5.51588e-06
1197.61	5.98576e-06
1199.61	4.73958e-06
1201.6	4.99154e-06
1203.6	5.57717e-06
1205.6	4.99835e-06
1207.6	6.58501e-06
1209.6	1.03848e-05
1211.59	8.40321e-06
1213.59	6.80292e-06
1215.59	5.93128e-06
1217.59	2.57408e-06
1219.59	8.79818e-06
1221.59	1.10999e-05
1223.58	1.05278e-05
1225.58	7.05488e-06
1227.58	6.44882e-06
1229.58	2.66942e-06
1231.58	4.32418e-06
1233.58	2.69665e-06
1235.57	1.04529e-05
1237.57	1.08683e-05
1239.57	6.48287e-06
1241.57	6.01981e-06
1243.57	2.88733e-06
1245.56	8.9548e-06
1247.56	1.02895e-05
1249.56	5.10049e-06
1251.56	1.80458e-06
1253.56	3.39125e-06
1255.56	8.44407e-06
1257.55	9.71068e-06
1259.55	3.79983e-06
1261.55	5.32521e-06
1263.55	4.81448e-06
1265.55	6.63949e-06
1267.54	4.48081e-06
1269.54	6.55777e-06
1271.54	5.91085e-06
1273.54	2.7988e-06
1275.54	6.72121e-06
1277.54	1.04529e-05
1279.53	1.01125e-05
1281.53	8.85946e-06
1283.53	8.3964e-06
1285.53	1.04598e-05
1287.53	1.11543e-05
1289.53	8.66879e-06
1291.52	1.25844e-05
1293.52	1.50495e-05
1295.52	2.16618e-05
1297.52	2.11919e-05
1299.52	1.70652e-05
1301.51	1.17877e-05
1303.51	9.22038e-06
1305.51	6.55096e-06
1307.51	7.14341e-06
1309.51	5.60441e-06
1311.51	1.65477e-06
1313.5	2.09059e-06
1315.5	7.81077e-06
1317.5	1.19307e-05
1319.5	1.39327e-05
1321.5	9.30891e-06
1323.49	1.07117e-05
1325.49	1.2598e-05
1327.49	1.36399e-05
1329.49	9.86731e-06
1331.49	1.13382e-05
1333.49	1.17468e-05
1335.48	1.1774e-05
1337.48	1.04529e-05
1339.48	9.98988e-06
1341.48	5.7338e-06
1343.48	6.63949e-06
1345.47	2.44469e-06
1347.47	4.37185e-06
1349.47	4.22885e-06
1351.47	3.74535e-06
1353.47	8.13082e-06
1355.47	1.82024e-05
1357.46	2.68916e-05
1359.46	3.11886e-05
1361.46	3.81141e-05
1363.46	3.84001e-05
1365.46	3.70313e-05
1367.46	3.79234e-05
1369.45	4.22476e-05
1371.45	4.68305e-05
1373.45	4.7818e-05
1375.45	5.35586e-05
1377.45	5.43621e-05
1379.44	4.75388e-05
1381.44	4.76341e-05
1383.44	4.79678e-05
1385.44	4.68305e-05
1387.44	4.24655e-05
1389.44	4.54005e-05
1391.43	4.53052e-05
1393.43	4.54345e-05
1395.43	4.6279e-05
1397.43	4.32282e-05
1399.43	3.56013e-05
1401.42	3.77532e-05
1403.42	3.9762e-05
1405.42	3.97484e-05
1407.42	3.94147e-05
1409.42	3.75012e-05
1411.42	4.1982e-05
1413.41	4.06473e-05
1415.41	3.45526e-05
1417.41	2.77156e-05
1419.41	2.36434e-05
1421.41	2.34391e-05
1423.41	2.37047e-05
1425.4	1.76645e-05
1427.4	1.58735e-05
1429.4	2.36638e-05
1431.4	3.34358e-05
1433.4	3.34222e-05
1435.39	3.71607e-05
1437.39	4.76205e-05
1439.39	4.96498e-05
1441.39	4.66126e-05
1443.39	4.92684e-05
1445.39	5.88157e-05
1447.38	7.31842e-05
1449.38	7.82711e-05
1451.38	7.88635e-05
1453.38	8.74983e-05
1455.38	0.000103569
1457.37	0.000101138
1459.37	8.71033e-05
1461.37	6.68784e-05
1463.37	6.12876e-05
1465.37	6.08518e-05
1467.37	6.44405e-05
1469.36	6.12808e-05
1471.36	6.38208e-05
1473.36	6.73006e-05
1475.36	5.95988e-05
1477.36	5.17199e-05
1479.35	4.73753e-05
1481.35	5.56287e-05
1483.35	6.64085e-05
1485.35	6.95478e-05
1487.35	6.82335e-05
1489.35	7.6698e-05
1491.34	8.13218e-05
1493.34	8.99225e-05
1495.34	0.000110236
1497.34	0.000122473
1499.34	0.000108282
1501.34	8.58231e-05
1503.33	7.33068e-05
1505.33	6.37936e-05
1507.33	5.70928e-05
1509.33	4.97996e-05
1511.33	4.81176e-05
1513.32	4.82061e-05
1515.32	4.71029e-05
1517.32	4.94455e-05
1519.32	5.30546e-05
1521.32	5.20536e-05
1523.32	5.31704e-05
1525.31	4.66263e-05
1527.31	4.90709e-05
1529.31	5.01196e-05
1531.31	5.41033e-05
1533.31	5.27142e-05
1535.3	5.18902e-05
1537.3	4.82197e-05
1539.3	3.83933e-05
1541.3	3.39738e-05
1543.3	2.85396e-05
1545.3	2.88869e-05
1547.29	2.96087e-05
1549.29	3.19377e-05
1551.29	3.86452e-05
1553.29	3.95305e-05
1555.29	4.00753e-05
1557.28	3.21283e-05
1559.28	3.3e-05
1561.28	3.23599e-05
1563.28	3.15359e-05
1565.28	3.44913e-05
1567.28	3.54651e-05
1569.27	3.01876e-05
1571.27	2.88324e-05
1573.27	3.01399e-05
1575.27	3.11682e-05
1577.27	3.18696e-05
1579.27	2.78382e-05
1581.26	2.99084e-05
1583.26	3.74331e-05
1585.26	3.32247e-05
1587.26	3.23599e-05
1589.26	2.7988e-05
1591.25	2.60336e-05
1593.25	2.61698e-05
1595.25	2.6272e-05
1597.25	2.07697e-05
1599.25	2.51892e-05
1601.25	2.46376e-05
1603.24	2.48283e-05
1605.24	2.52845e-05
1607.24	2.24994e-05
1609.24	1.8502e-05
1611.24	1.62072e-05
1613.23	1.63161e-05
1615.23	1.22507e-05
1617.23	6.97317e-06
1619.23	7.85843e-06
1621.23	1.02759e-05
1623.23	1.07866e-05
1625.22	7.10255e-06
1627.22	2.87371e-06
1629.22	1.66838e-06
1631.22	3.90198e-06
1633.22	2.09059e-06
1635.22	6.67354e-07
1637.21	9.26124e-07
1639.21	6.2241e-06
1641.21	8.60069e-06
1643.21	5.64527e-06
1645.21	4.22204e-06
1647.2	3.72492e-06
1649.2	2.62856e-06
1651.2	5.12773e-06
1653.2	6.41477e-06
1655.2	6.76888e-06
1657.2	6.75526e-06
1659.19	6.98679e-06
1661.19	2.0974e-06
1663.19	5.47503e-06
1665.19	5.39331e-06
1667.19	8.61431e-06
1669.18	1.36739e-05
1671.18	1.31768e-05
1673.18	2.02385e-05
1675.18	1.44026e-05
1677.18	6.47606e-06
1679.18	8.51898e-06
1681.17	8.89351e-06
1683.17	8.81861e-06
1685.17	3.7794e-06
1687.17	8.34192e-06
1689.17	8.32831e-06
1691.16	6.17643e-06
1693.16	1.41098e-05
1695.16	1.72014e-05
1697.16	1.23801e-05
1699.16	1.15765e-05
1701.16	1.51176e-05
1703.15	1.8359e-05
1705.15	1.85429e-05
1707.15	1.02418e-05
1709.15	8.27383e-06
1711.15	1.17127e-05
1713.15	1.9006e-05
1715.14	2.58702e-05
1717.14	2.41201e-05
1719.14	1.50631e-05
1721.14	1.62276e-05
1723.14	2.04633e-05
1725.13	2.1151e-05
1727.13	1.61118e-05
1729.13	1.17536e-05
1731.13	9.5813e-06
1733.13	8.53941e-06
1735.13	6.19005e-06
1737.12	1.03236e-05
1739.12	9.56768e-06
1741.12	1.04666e-05
1743.12	1.47499e-05
1745.12	1.72082e-05
1747.11	1.55058e-05
1749.11	2.1008e-05
1751.11	1.70243e-05
1753.11	1.03508e-05
1755.11	1.25844e-05
1757.11	1.27546e-05
1759.1	1.71946e-05
1761.1	1.72695e-05
1763.1	8.66198e-06
1765.1	6.57139e-06
1767.1	1.53355e-05
1769.09	1.8577e-05
1771.09	1.90332e-05
1773.09	1.79096e-05
1775.09	1.29657e-05
1777.09	1.0807e-05
1779.09	1.55398e-05
1781.08	1.46409e-05
1783.08	1.09705e-05
1785.08	1.20192e-05
1787.08	1.15629e-05
1789.08	1.14131e-05
1791.08	1.15221e-05
1793.07	1.50563e-05
1795.07	1.05823e-05
1797.07	6.84378e-06
1799.07	9.92178e-06
1801.07	1.10182e-05
1803.06	1.02963e-05
1805.06	1.12293e-05
1807.06	8.85946e-06
1809.06	1.54717e-05
1811.06	1.7467e-05
1813.06	1.04393e-05
1815.05	7.3477e-06
1817.05	9.12504e-06
1819.05	1.47567e-05
1821.05	8.19211e-06
1823.05	3.07119e-06
1825.04	4.98473e-06
1827.04	9.14547e-06
1829.04	1.31019e-05
1831.04	1.19579e-05
1833.04	1.063e-05
1835.04	8.15806e-06
1837.03	6.0879e-06
1839.03	4.38547e-06
1841.03	8.84585e-06
1843.03	7.77672e-06
1845.03	6.98679e-06
1847.03	5.37288e-06
1849.02	7.9061e-06
1851.02	1.39123e-05
1853.02	6.95274e-06
1855.02	1.83182e-06
1857.02	4.69191e-06
1859.01	8.56665e-06
1861.01	8.05592e-06
1863.01	7.65414e-06
1865.01	7.73586e-06
1867.01	6.97998e-06
1869.01	9.12504e-06
1871	5.54993e-06
1873	2.33574e-06
1875	2.21997e-06