File: Data/PolymerBlends/Film15_0010_afmspectrum0001.txt
Wavenumber (cm^-1)	Intensity (V)
760	4.88939e-06
761.998	1.34697e-05
763.996	1.65e-05
765.995	1.33335e-05
767.993	1.21622e-05
769.991	8.64155e-06
771.989	1.42732e-05
773.987	4.83491e-06
775.986	8.57346e-06
777.984	1.10658e-05
779.982	1.26389e-05
781.98	8.94118e-06
783.978	1.81139e-06
785.977	2.33982e-05
787.975	1.69358e-05
789.973	6.69397e-06
791.971	1.59824e-05
793.97	2.03475e-05
795.968	8.3964e-06
797.966	1.51993e-05
799.964	3.69428e-05
801.962	8.36916e-06
803.961	1.21349e-05
805.959	4.09265e-05
807.957	1.64932e-05
809.955	1.67179e-05
811.953	3.18219e-05
813.952	2.0865e-05
815.95	2.82332e-05
817.948	5.57717e-06
819.946	2.55842e-05
821.944	2.17094e-05
823.943	2.35004e-05
825.941	2.49372e-05
827.939	2.04633e-05
829.937	1.5533e-05
831.935	1.02282e-05
833.934	1.82501e-05
835.932	2.41133e-05
837.93	1.21554e-05
839.928	1.97687e-05
841.927	1.45933e-05
843.925	2.49917e-06
845.923	5.82913e-06
847.921	1.71061e-05
849.919	1.1883e-05
851.918	2.54139e-05
853.916	1.33879e-05
855.914	3.61597e-06
857.912	9.82645e-06
859.91	1.82365e-05
861.909	1.25572e-05
863.907	1.63774e-05
865.905	3.5002e-06
867.903	1.40144e-05
869.901	2.73956e-05
871.9	4.51485e-06
873.898	1.53015e-05
875.896	1.28227e-05
877.894	1.96461e-05
879.892	1.70039e-05
881.891	6.69397e-06
883.889	1.54513e-05
885.887	1.40008e-05
887.885	1.11952e-05
889.884	1.00444e-05
891.882	7.29323e-06
893.88	1.60029e-05
895.878	2.28807e-06
897.876	1.05347e-05
899.875	9.77197e-06
901.873	1.23937e-05
903.871	1.37489e-05
905.869	3.7794e-06
907.867	6.09471e-06
909.866	6.33305e-06
911.864	1.18149e-05
913.862	1.27546e-05
915.86	1.05074e-05
917.858	1.60982e-05
919.857	5.22988e-06
921.855	1.86246e-05
923.853	1.40076e-05
925.851	4.48081e-06
927.849	1.51653e-05
929.848	2.15188e-05
931.846	1.17196e-05
933.844	5.77465e-06
935.842	1.00784e-05
937.841	1.04121e-05
939.839	2.66737e-05
941.837	1.682e-05
943.835	1.29657e-05
945.833	1.82228e-05
947.832	4.41952e-06
949.83	1.08479e-05
951.828	5.91085e-06
953.826	8.50536e-06
955.824	1.08411e-05
957.823	6.81654e-06
959.821	1.12361e-05
961.819	7.80396e-06
963.817	8.78456e-06
965.815	8.76413e-06
967.814	1.57169e-05
969.812	8.3215e-06
971.81	1.06572e-05
973.808	1.78347e-05
975.806	1.07934e-05
977.805	9.87411e-06
979.803	2.07288e-05
981.801	4.74638e-06
983.799	4.9643e-06
985.797	2.88733e-05
987.796	1.56352e-05
989.794	1.97618e-05
991.792	1.17127e-05
993.79	1.73512e-05
995.789	1.0344e-05
997.787	1.13927e-05
999.785	2.52437e-05
1001.78	1.56624e-06
1003.78	9.38381e-06
1005.78	8.05592e-06
1007.78	1.02895e-05
1009.78	7.91291e-06
1011.77	3.68407e-06
1013.77	9.6562e-06
1015.77	3.54787e-06
1017.77	7.47709e-06
1019.77	1.1025e-05
1021.77	6.46925e-06
1023.76	2.16754e-05
1025.76	6.72121e-06
1027.76	1.96597e-05
1029.76	1.41098e-05
1031.76	1.05823e-05
1033.75	8.78456e-06
1035.75	1.18217e-05
1037.75	6.35348e-06
1039.75	2.15869e-05
1041.75	1.14267e-05
1043.75	1.87744e-05
1045.74	1.4423e-05
1047.74	1.19238e-05
1049.74	1.24891e-05
1051.74	1.73853e-05
1053.74	2.49372e-05
1055.73	5.78146e-06
1057.73	1.20805e-05
1059.73	8.50536e-06
1061.73	1.46477e-05
1063.73	1.21213e-05
1065.73	4.60338e-06
1067.72	1.28227e-05
1069.72	2.7307e-06
1071.72	1.5819e-05
1073.72	1.3422e-05
1075.72	9.21357e-06
1077.72	1.08683e-05
1079.71	1.12429e-05
1081.71	2.42971e-05
1083.71	1.14472e-05
1085.71	7.47709e-06
1087.71	1.13042e-05
1089.7	1.52606e-05
1091.7	1.55398e-05
1093.7	2.32621e-05
1095.7	1.64523e-05
1097.7	1.01193e-05
1099.7	1.15765e-05
1101.69	3.9156e-06
1103.69	2.94181e-06
1105.69	2.00274e-05
1107.69	1.48248e-05
1109.69	1.50768e-05
1111.68	1.72559e-05
1113.68	1.59212e-05
1115.68	4.23565e-06
1117.68	9.04333e-06
1119.68	2.69257e-05
1121.68	4.00412e-06
1123.67	1.33539e-05
1125.67	3.13248e-06
1127.67	9.33615e-06
1129.67	3.52744e-06
1131.67	1.00307e-05
1133.66	5.93128e-06
1135.66	1.16515e-05
1137.66	1.17264e-05
1139.66	6.84378e-06
1141.66	2.90776e-06
1143.66	2.6844e-05
1145.65	9.10461e-06
1147.65	1.7324e-05
1149.65	2.0974e-05
1151.65	1.14404e-05
1153.65	1.36467e-05
1155.65	1.2421e-05
1157.64	5.31159e-06
1159.64	8.08996e-06
1161.64	1.06709e-05
1163.64	1.37284e-05
1165.64	1.08956e-05
1167.63	9.64258e-06
1169.63	6.75526e-06
1171.63	1.64115e-06
1173.63	1.00444e-05
1175.63	5.65889e-06
1177.63	7.86524e-06
1179.62	1.11067e-05
1181.62	5.62484e-06
1183.62	1.08956e-05
1185.62	1.26184e-05
1187.62	1.02487e-05
1189.61	5.44779e-06
1191.61	1.13178e-05
1193.61	1.45252e-05
1195.61	6.80973e-06
1197.61	1.17127e-05
1199.61	6.59182e-06
1201.6	1.28976e-05
1203.6	3.26186e-06
1205.6	1.28568e-05
1207.6	9.84688e-06
1209.6	6.29219e-06
1211.59	4.32418e-06
1213.59	6.29219e-06
1215.59	1.53764e-05
1217.59	1.80526e-05
1219.59	2.67623e-06
1221.59	1.00512e-05
1223.58	9.71749e-06
1225.58	1.22848e-05
1227.58	1.15425e-05
1229.58	1.66838e-05
1231.58	4.17437e-06
1233.58	8.0423e-06
1235.57	1.66226e-05
1237.57	6.9255e-06
1239.57	2.57136e-05
1241.57	6.51692e-06
1243.57	1.45524e-05
1245.56	8.72327e-06
1247.56	1.30202e-05
1249.56	1.07185e-05
1251.56	8.43726e-06
1253.56	1.28772e-05
1255.56	3.36401e-06
1257.55	2.4515e-06
1259.55	1.13723e-05
1261.55	2.42086e-05
1263.55	2.03815e-05
1265.55	8.44407e-06
1267.54	1.05415e-05
1269.54	5.59079e-06
1271.54	1.86519e-05
1273.54	2.16073e-05
1275.54	1.31155e-05
1277.54	1.67519e-05
1279.53	1.27274e-05
1281.53	1.4532e-05
1283.53	1.21281e-05
1285.53	7.87886e-06
1287.53	2.16073e-05
1289.53	2.19546e-05
1291.52	1.62821e-05
1293.52	3.05961e-05
1295.52	1.81343e-05
1297.52	1.56079e-05
1299.52	9.37019e-06
1301.51	1.90877e-05
1303.51	1.98776e-05
1305.51	1.56488e-05
1307.51	2.34663e-05
1309.51	2.2261e-05
1311.51	9.36338e-06
1313.5	2.1437e-05
1315.5	1.49542e-05
1317.5	1.36127e-05
1319.5	8.21935e-06
1321.5	1.41438e-05
1323.49	7.53157e-06
1325.49	2.54412e-05
1327.49	1.81275e-05
1329.49	2.10012e-05
1331.49	1.7181e-05
1333.49	9.6562e-06
1335.48	2.1403e-05
1337.48	1.02759e-05
1339.48	1.8216e-05
1341.48	1.30543e-05
1343.48	8.7437e-06
1345.47	5.37969e-06
1347.47	1.67247e-05
1349.47	1.21009e-05
1351.47	8.49855e-06
1353.47	2.06607e-05
1355.47	4.58091e-05
1357.46	3.83388e-05
1359.46	2.98062e-05
1361.46	4.19071e-05
1363.46	3.95986e-05
1365.46	5.7801e-05
1367.46	4.58295e-05
1369.45	4.27038e-05
1371.45	4.59861e-05
1373.45	4.41203e-05
1375.45	5.66161e-05
1377.45	3.08685e-05
1379.44	4.29626e-05
1381.44	4.56593e-05
1383.44	5.52338e-05
1385.44	4.59453e-05
1387.44	4.04294e-05
1389.44	5.08415e-05
1391.43	4.55571e-05
1393.43	4.82061e-05
1395.43	3.89789e-05
1397.43	4.86079e-05
1399.43	6.25066e-05
1401.42	3.19445e-05
1403.42	4.49238e-05
1405.42	4.30307e-05
1407.42	2.84715e-05
1409.42	5.08619e-05
1411.42	3.01739e-05
1413.41	3.89381e-05
1415.41	5.51929e-05
1417.41	1.91285e-05
1419.41	2.70142e-05
1421.41	4.13351e-06
1423.41	3.04123e-05
1425.4	1.03508e-05
1427.4	2.45491e-05
1429.4	2.99696e-05
1431.4	5.12228e-05
1433.4	5.05691e-05
1435.39	6.20367e-05
1437.39	7.31025e-05
1439.39	4.10286e-05
1441.39	6.15328e-05
1443.39	5.53223e-05
1445.39	9.43284e-05
1447.38	8.94186e-05
1449.38	8.08792e-05
1451.38	9.99533e-05
1453.38	9.88705e-05
1455.38	0.000110726
1457.37	6.4924e-05
1459.37	6.31262e-05
1461.37	5.82505e-05
1463.37	5.35722e-05
1465.37	6.74368e-05
1467.37	7.57174e-05
1469.36	6.73347e-05
1471.36	4.72119e-05
1473.36	7.98169e-05
1475.36	5.22783e-05
1477.36	7.63507e-05
1479.35	7.57174e-05
1481.35	8.02595e-05
1483.35	6.87511e-05
1485.35	7.1904e-05
1487.35	7.78148e-05
1489.35	9.00247e-05
1491.34	7.21083e-05
1493.34	0.000111972
1495.34	0.000129514
1497.34	0.000105299
1499.34	9.18906e-05
1501.34	6.93095e-05
1503.33	8.29085e-05
1505.33	5.66366e-05
1507.33	6.81995e-05
1509.33	4.5598e-05
1511.33	5.88702e-05
1513.32	6.41136e-05
1515.32	5.2469e-05
1517.32	4.94046e-05
1519.32	5.00243e-05
1521.32	6.01776e-05
1523.32	6.00346e-05
1525.31	4.83832e-05
1527.31	6.27313e-05
1529.31	6.15804e-05
1531.31	6.60068e-05
1533.31	5.77261e-05
1535.3	4.47944e-05
1537.3	3.72629e-05
1539.3	3.71471e-05
1541.3	3.06166e-05
1543.3	4.09742e-05
1545.3	3.89993e-05
1547.29	4.38615e-05
1549.29	4.93365e-05
1551.29	3.53017e-05
1553.29	5.11615e-05
1555.29	4.5312e-05
1557.28	2.56659e-05
1559.28	2.42971e-05
1561.28	4.3521e-05
1563.28	4.51009e-05
1565.28	4.49647e-05
1567.28	4.87781e-05
1569.27	3.33949e-05
1571.27	3.97348e-05
1573.27	2.91184e-05
1575.27	2.58838e-05
1577.27	2.27037e-05
1579.27	3.18696e-05
1581.26	2.52709e-05
1583.26	2.91457e-05
1585.26	2.88937e-05
1587.26	4.66807e-05
1589.26	2.89618e-05
1591.25	7.94015e-06
1593.25	1.95371e-05
1595.25	3.82571e-05
1597.25	3.07323e-05
1599.25	5.02626e-05
1601.25	3.80732e-05
1603.24	4.21182e-05
1605.24	3.54719e-05
1607.24	1.5424e-05
1609.24	2.29488e-05
1611.24	1.52674e-05
1613.23	1.83046e-05
1615.23	6.70078e-06
1617.23	1.57101e-05
1619.23	1.50018e-05
1621.23	1.05006e-05
1623.23	1.15561e-05
1625.22	3.77259e-06
1627.22	1.48044e-05
1629.22	1.10045e-05
1631.22	7.91972e-06
1633.22	1.63842e-05
1635.22	2.17639e-05
1637.21	6.18324e-06
1639.21	1.02895e-05
1641.21	3.03714e-06
1643.21	1.64932e-05
1645.21	1.45252e-05
1647.2	4.07222e-06
1649.2	1.93873e-05
1651.2	6.3671e-06
1653.2	1.15016e-05
1655.2	1.5499e-05
1657.2	1.09432e-05
1659.19	6.49649e-06
1661.19	5.23669e-06
1663.19	2.01296e-05
1665.19	1.01737e-05
1667.19	1.05006e-05
1669.18	1.1454e-05
1671.18	1.68677e-05
1673.18	2.24245e-05
1675.18	2.77224e-05
1677.18	7.66776e-06
1679.18	8.1172e-06
1681.17	2.6054e-05
1683.17	1.16242e-05
1685.17	2.08446e-05
1687.17	1.16651e-05
1689.17	1.08343e-05
1691.16	3.3606e-05
1693.16	1.15902e-05
1695.16	1.36944e-05
1697.16	4.26289e-06
1699.16	1.55126e-05
1701.16	1.96801e-06
1703.15	7.96058e-06
1705.15	1.17808e-05
1707.15	1.89106e-05
1709.15	2.45082e-05
1711.15	2.80561e-05
1713.15	2.31054e-05
1715.14	9.8605e-06
1717.14	1.94418e-05
1719.14	1.05823e-05
1721.14	1.69494e-05
1723.14	3.00786e-05
1725.13	1.26933e-05
1727.13	8.36916e-06
1729.13	5.06644e-06
1731.13	2.35685e-05
1733.13	1.43413e-05
1735.13	1.3422e-05
1737.12	2.45219e-05
1739.12	6.9936e-06
1741.12	3.97416e-05
1743.12	1.3313e-05
1745.12	4.6851e-06
1747.11	1.44707e-05
1749.11	9.9354e-06
1751.11	1.85361e-05
1753.11	4.67148e-06
1755.11	4.48081e-06
1757.11	4.35142e-06
1759.1	2.91661e-05
1761.1	1.4995e-05
1763.1	2.8669e-05
1765.1	1.43004e-06
1767.1	1.21962e-05
1769.09	1.09092e-05
1771.09	1.57169e-05
1773.09	1.51789e-05
1775.09	1.1488e-05
1777.09	1.30202e-05
1779.09	1.78143e-05
1781.08	2.23564e-05
1783.08	2.37387e-05
1785.08	1.66975e-05
1787.08	1.25163e-05
1789.08	2.07969e-05
1791.08	1.91354e-05
1793.07	2.1689e-05
1795.07	2.11306e-05
1797.07	9.03652e-06
1799.07	9.45872e-06
1801.07	1.4246e-05
1803.06	1.47022e-05
1805.06	1.22099e-05
1807.06	1.23052e-05
1809.06	2.26219e-05
1811.06	7.66095e-06
1813.06	2.126e-05
1815.05	2.37524e-05
1817.05	1.59824e-05
1819.05	3.24143e-06
1821.05	8.57346e-06
1823.05	1.18285e-05
1825.04	1.75283e-05
1827.04	8.87989e-06
1829.04	1.01942e-05
1831.04	8.01506e-06
1833.04	1.44366e-05
1835.04	4.26289e-06
1837.03	1.22371e-05
1839.03	6.6463e-06
1841.03	2.21248e-05
1843.03	9.36338e-06
1845.03	1.54104e-05
1847.03	1.60505e-05
1849.02	1.75214e-05
1851.02	1.19511e-05
1853.02	1.49474e-05
1855.02	1.15357e-05
1857.02	1.05619e-05
1859.01	8.16487e-06
1861.01	1.03917e-05
1863.01	9.64258e-06
1865.01	2.37864e-05
1867.01	3.35039e-06
1869.01	1.904e-05
1871	8.26021e-06
1873	6.88464e-06
1875	1.37352e-05